Folder: Datos_ESAR/220623 - TG_TGA

File: C4060956-TA_ResinaSola.txt
nstrument TGA-50H
Module TGA
Operator LJ
Sample NC
Size 6.282 mg
Method
Comment
Xcomment Pan: Platinum
Xcomment Gas1: Nitrogen
Xcomment Balance Gas: Nitrogen 20.0 ml/min
Xcomment Sample Gas: Nitrogen 20.0 ml/min
Nsig 3
Sig1 Time (sec)
Sig2 Temperature (C)
Sig3 Weight (mg)
OrgMethod 1: Ramp 10.00 C/min to 800.00 C
.0000	31.30	6.282
16.00	31.77	6.295
32.00	32.80	6.299
48.00	35.49	6.301
64.00	37.84	6.302
80.00	40.06	6.304
96.00	42.41	6.305
112.0	45.16	6.306
128.0	48.15	6.307
144.0	50.84	6.307
160.0	53.15	6.307
176.0	55.61	6.308
192.0	58.31	6.308
208.0	60.80	6.309
224.0	63.66	6.310
240.0	66.28	6.309
256.0	68.87	6.309
272.0	71.31	6.309
288.0	73.86	6.309
304.0	76.39	6.310
320.0	79.11	6.310
336.0	81.65	6.310
352.0	84.61	6.309
368.0	87.28	6.309
384.0	89.89	6.308
400.0	92.34	6.307
416.0	94.84	6.307
432.0	97.50	6.306
448.0	100.4	6.305
464.0	103.2	6.304
480.0	105.8	6.303
496.0	108.2	6.301
512.0	110.7	6.300
528.0	113.6	6.299
544.0	116.4	6.297
560.0	119.1	6.296
576.0	121.7	6.294
592.0	124.2	6.291
608.0	126.8	6.290
624.0	129.5	6.288
640.0	132.3	6.286
656.0	135.2	6.283
672.0	137.6	6.280
688.0	140.1	6.278
704.0	143.2	6.276
720.0	146.1	6.273
736.0	148.4	6.269
752.0	150.7	6.267
768.0	153.1	6.264
784.0	155.9	6.262
800.0	159.1	6.258
816.0	162.0	6.254
832.0	164.2	6.250
848.0	166.6	6.246
864.0	169.4	6.243
880.0	172.2	6.239
896.0	175.1	6.234
912.0	177.5	6.230
928.0	180.0	6.226
944.0	182.5	6.221
960.0	185.1	6.217
976.0	188.3	6.212
992.0	191.1	6.206
1008.	193.5	6.200
1024.	195.9	6.195
1040.	198.6	6.189
1056.	201.5	6.184
1072.	204.4	6.177
1088.	206.8	6.171
1104.	209.3	6.165
1120.	212.1	6.159
1136.	214.9	6.152
1152.	217.5	6.145
1168.	220.2	6.138
1184.	222.9	6.131
1200.	225.5	6.124
1216.	228.2	6.117
1232.	230.9	6.109
1248.	233.5	6.101
1264.	236.2	6.093
1280.	238.8	6.085
1296.	241.4	6.077
1312.	244.1	6.069
1328.	247.1	6.061
1344.	249.6	6.052
1360.	252.1	6.044
1376.	254.8	6.036
1392.	257.5	6.027
1408.	260.4	6.019
1424.	262.9	6.009
1440.	265.4	6.001
1456.	268.3	5.992
1472.	270.8	5.983
1488.	273.4	5.974
1504.	276.3	5.965
1520.	278.9	5.956
1536.	281.2	5.947
1552.	284.1	5.937
1568.	287.1	5.927
1584.	289.5	5.916
1600.	292.0	5.906
1616.	294.9	5.895
1632.	297.8	5.883
1648.	300.3	5.871
1664.	302.7	5.859
1680.	305.5	5.846
1696.	308.5	5.832
1712.	310.7	5.817
1728.	313.4	5.802
1744.	316.4	5.786
1760.	318.9	5.768
1776.	321.4	5.749
1792.	324.2	5.729
1808.	326.8	5.708
1824.	329.8	5.684
1840.	332.2	5.659
1856.	334.5	5.632
1872.	337.3	5.602
1888.	340.4	5.570
1904.	342.9	5.534
1920.	345.5	5.494
1936.	348.2	5.451
1952.	350.7	5.402
1968.	353.6	5.349
1984.	356.4	5.289
2000.	358.9	5.221
2016.	361.5	5.144
2032.	364.3	5.054
2048.	366.9	4.961
2064.	369.6	4.868
2080.	372.0	4.770
2096.	374.8	4.666
2112.	377.5	4.550
2128.	380.2	4.421
2144.	382.6	4.277
2160.	385.6	4.099
2176.	388.5	3.897
2192.	390.8	3.692
2208.	393.5	3.479
2224.	396.3	3.265
2240.	399.0	3.041
2256.	401.7	2.814
2272.	404.2	2.599
2288.	406.9	2.395
2304.	409.6	2.198
2320.	412.4	2.009
2336.	414.8	1.832
2352.	417.6	1.666
2368.	420.2	1.507
2384.	423.1	1.357
2400.	425.8	1.224
2416.	428.6	1.109
2432.	430.6	1.013
2448.	433.1	0.9302
2464.	436.1	0.8641
2480.	438.8	0.8167
2496.	441.3	0.7837
2512.	444.2	0.7586
2528.	447.0	0.7376
2544.	449.4	0.7225
2560.	452.2	0.7097
2576.	454.9	0.6991
2592.	457.4	0.6905
2608.	460.2	0.6836
2624.	462.9	0.6773
2640.	465.4	0.6723
2656.	468.0	0.6683
2672.	470.8	0.6640
2688.	473.4	0.6604
2704.	476.1	0.6569
2720.	478.9	0.6531
2736.	481.4	0.6499
2752.	484.1	0.6463
2768.	486.8	0.6434
2784.	489.4	0.6399
2800.	491.9	0.6365
2816.	494.8	0.6330
2832.	497.4	0.6297
2848.	500.0	0.6256
2864.	502.7	0.6219
2880.	505.3	0.6183
2896.	508.0	0.6144
2912.	510.7	0.6107
2928.	513.5	0.6064
2944.	516.1	0.6018
2960.	518.7	0.5974
2976.	521.5	0.5923
2992.	524.0	0.5864
3008.	526.6	0.5806
3024.	529.4	0.5745
3040.	532.0	0.5672
3056.	534.8	0.5591
3072.	537.6	0.5514
3088.	540.1	0.5427
3104.	542.8	0.5330
3120.	545.7	0.5228
3136.	548.1	0.5124
3152.	550.8	0.5002
3168.	553.5	0.4870
3184.	556.2	0.4729
3200.	558.8	0.4573
3216.	561.4	0.4405
3232.	564.3	0.4226
3248.	566.8	0.4035
3264.	569.5	0.3858
3280.	572.0	0.3680
3296.	574.7	0.3497
3312.	577.4	0.3320
3328.	580.2	0.3133
3344.	582.7	0.2936
3360.	585.5	0.2739
3376.	588.0	0.2546
3392.	590.7	0.2337
3408.	593.5	0.2151
3424.	596.0	0.1958
3440.	598.9	0.1772
3456.	601.3	0.1599
3472.	604.0	0.1448
3488.	606.7	0.1327
3504.	609.3	0.1213
3520.	611.9	0.1155
3536.	614.8	0.1091
3552.	617.3	0.1051
3568.	620.0	0.1036
3584.	622.8	0.1020
3600.	625.5	0.1008
3616.	628.0	0.1009
3632.	630.7	0.1003
3648.	633.4	0.09966
3664.	636.0	0.09993
3680.	638.9	0.09926
3696.	641.5	0.09956
3712.	644.2	0.09908
3728.	646.9	0.09854
3744.	649.5	0.09865
3760.	652.3	0.09808
3776.	655.1	0.09814
3792.	657.7	0.09845
3808.	660.3	0.09857
3824.	663.2	0.09823
3840.	665.8	0.09850
3856.	668.5	0.09798
3872.	671.3	0.09796
3888.	673.8	0.09782
3904.	676.6	0.09859
3920.	679.3	0.09814
3936.	682.0	0.09792
3952.	684.6	0.09866
3968.	687.3	0.09871
3984.	690.0	0.09870
4000.	692.7	0.09911
4016.	695.5	0.09977
4032.	698.1	0.09976
4048.	700.7	0.1008
4064.	703.5	0.1021
4080.	706.1	0.1013
4096.	708.8	0.1017
4112.	711.5	0.1023
4128.	714.2	0.1018
4144.	716.9	0.1028
4160.	719.5	0.1023
4176.	722.2	0.1027
4192.	725.0	0.1033
4208.	727.5	0.1037
4224.	730.3	0.1037
4240.	732.9	0.1038
4256.	735.6	0.1039
4272.	738.2	0.1042
4288.	741.0	0.1044
4304.	743.4	0.1047
4320.	746.2	0.1048
4336.	748.8	0.1062
4352.	751.3	0.1060
4368.	754.1	0.1052
4384.	756.8	0.1052
4400.	759.4	0.1056
4416.	761.9	0.1060
4432.	764.7	0.1063
4448.	767.5	0.1060
4464.	770.3	0.1062
4480.	772.8	0.1063
4496.	775.5	0.1071
4512.	778.2	0.1066
4528.	780.8	0.1064
4544.	783.5	0.1068
4560.	786.1	0.1069
4576.	788.9	0.1088
4592.	791.4	0.1066
4608.	794.1	0.1064
4624.	796.9	0.1063
4640.	799.4	0.1073
4643.	799.9	0.1080

File: C4190947-TA_kit10.txt
Instrument TGA-50H
Module TGA-50H
Operator LJ - LATAT
Sample KIT10
Size 2.764 mg
Method
Comment
Xcomment Pan: Platinum
Xcomment Gas1: Nitrogen
Xcomment Balance Gas: Nitrogen 20.0 ml/min
Xcomment Sample Gas: Nitrogen 20.0 ml/min
Nsig 3
Sig1 Time (sec)
Sig2 Temperature (C)
Sig3 Weight (mg)
OrgMethod 1: Ramp 10.00 C/min to 800.00 C
.0000	30.24	2.765
16.00	31.07	2.777
32.00	32.32	2.780
48.00	34.25	2.780
64.00	36.68	2.780
80.00	38.80	2.781
96.00	41.24	2.782
112.0	44.50	2.782
128.0	47.14	2.780
144.0	49.58	2.779
160.0	51.92	2.778
176.0	54.42	2.777
192.0	56.83	2.777
208.0	59.50	2.777
224.0	62.34	2.776
240.0	64.79	2.775
256.0	67.78	2.774
272.0	70.01	2.773
288.0	72.50	2.773
304.0	75.30	2.773
320.0	78.18	2.772
336.0	80.78	2.771
352.0	83.51	2.770
368.0	86.01	2.769
384.0	88.45	2.769
400.0	90.90	2.768
416.0	93.69	2.768
432.0	96.51	2.767
448.0	99.39	2.767
464.0	101.9	2.766
480.0	104.2	2.765
496.0	106.8	2.765
512.0	109.6	2.764
528.0	112.4	2.764
544.0	115.1	2.763
560.0	117.7	2.763
576.0	120.0	2.763
592.0	122.7	2.762
608.0	125.6	2.762
624.0	128.6	2.761
640.0	131.0	2.761
656.0	133.5	2.760
672.0	136.1	2.760
688.0	139.0	2.760
704.0	141.5	2.759
720.0	144.3	2.759
736.0	147.0	2.759
752.0	149.6	2.759
768.0	152.2	2.758
784.0	155.0	2.758
800.0	157.6	2.758
816.0	160.2	2.758
832.0	163.0	2.757
848.0	165.6	2.757
864.0	168.5	2.757
880.0	171.0	2.756
896.0	173.6	2.756
912.0	176.1	2.756
928.0	179.2	2.755
944.0	181.9	2.755
960.0	184.2	2.754
976.0	186.7	2.754
992.0	189.3	2.754
1008.	192.3	2.753
1024.	195.1	2.753
1040.	197.7	2.752
1056.	200.1	2.751
1072.	202.7	2.751
1088.	205.6	2.750
1104.	208.6	2.749
1120.	211.1	2.748
1136.	213.7	2.747
1152.	216.0	2.746
1168.	218.9	2.746
1184.	222.0	2.745
1200.	224.7	2.743
1216.	226.9	2.742
1232.	229.4	2.741
1248.	232.3	2.739
1264.	235.0	2.737
1280.	237.7	2.735
1296.	240.3	2.733
1312.	242.7	2.731
1328.	245.6	2.729
1344.	248.5	2.727
1360.	250.9	2.724
1376.	253.5	2.722
1392.	256.2	2.719
1408.	259.1	2.717
1424.	261.9	2.714
1440.	264.4	2.711
1456.	266.8	2.709
1472.	269.6	2.707
1488.	272.6	2.704
1504.	275.2	2.701
1520.	277.6	2.699
1536.	280.4	2.696
1552.	283.2	2.693
1568.	285.8	2.690
1584.	288.4	2.688
1600.	290.8	2.685
1616.	293.8	2.682
1632.	296.6	2.679
1648.	299.2	2.675
1664.	301.6	2.672
1680.	304.3	2.669
1696.	307.1	2.666
1712.	309.9	2.662
1728.	312.6	2.659
1744.	315.0	2.655
1760.	317.5	2.652
1776.	320.2	2.648
1792.	323.0	2.644
1808.	325.6	2.640
1824.	328.1	2.637
1840.	331.0	2.633
1856.	333.6	2.630
1872.	336.3	2.626
1888.	338.9	2.621
1904.	341.6	2.618
1920.	344.2	2.613
1936.	346.9	2.609
1952.	349.6	2.604
1968.	352.4	2.599
1984.	354.9	2.595
2000.	357.8	2.589
2016.	360.4	2.583
2032.	363.2	2.578
2048.	365.8	2.572
2064.	368.2	2.565
2080.	370.9	2.558
2096.	373.7	2.552
2112.	376.4	2.544
2128.	379.0	2.536
2144.	381.8	2.527
2160.	384.3	2.518
2176.	386.9	2.508
2192.	389.5	2.498
2208.	392.1	2.486
2224.	395.0	2.475
2240.	397.5	2.463
2256.	400.1	2.450
2272.	402.8	2.436
2288.	405.7	2.421
2304.	408.3	2.405
2320.	410.9	2.389
2336.	413.6	2.371
2352.	416.2	2.354
2368.	418.9	2.337
2384.	421.6	2.320
2400.	424.2	2.306
2416.	427.0	2.293
2432.	429.7	2.283
2448.	432.3	2.273
2464.	435.0	2.264
2480.	437.8	2.255
2496.	440.3	2.247
2512.	443.0	2.239
2528.	445.8	2.231
2544.	448.5	2.223
2560.	451.0	2.216
2576.	453.6	2.209
2592.	456.4	2.202
2608.	459.0	2.196
2624.	461.7	2.190
2640.	464.4	2.185
2656.	467.1	2.180
2672.	469.7	2.176
2688.	472.2	2.172
2704.	475.0	2.168
2720.	477.9	2.164
2736.	480.5	2.161
2752.	483.2	2.158
2768.	485.7	2.156
2784.	488.4	2.154
2800.	491.0	2.152
2816.	493.8	2.150
2832.	496.1	2.148
2848.	499.0	2.147
2864.	501.8	2.145
2880.	504.4	2.144
2896.	506.9	2.143
2912.	509.7	2.142
2928.	512.4	2.141
2944.	515.2	2.141
2960.	517.7	2.140
2976.	520.5	2.140
2992.	523.1	2.139
3008.	525.7	2.139
3024.	528.4	2.139
3040.	531.0	2.139
3056.	533.5	2.139
3072.	536.3	2.139
3088.	538.9	2.139
3104.	541.6	2.139
3120.	544.1	2.139
3136.	547.0	2.139
3152.	549.7	2.139
3168.	552.1	2.139
3184.	554.8	2.139
3200.	557.4	2.139
3216.	560.3	2.139
3232.	563.0	2.140
3248.	565.5	2.140
3264.	568.2	2.140
3280.	570.8	2.140
3296.	573.8	2.140
3312.	576.4	2.140
3328.	578.9	2.141
3344.	581.7	2.141
3360.	584.3	2.142
3376.	587.0	2.142
3392.	589.5	2.142
3408.	592.1	2.143
3424.	594.9	2.143
3440.	597.6	2.143
3456.	600.3	2.144
3472.	602.9	2.144
3488.	605.4	2.145
3504.	608.2	2.145
3520.	611.0	2.145
3536.	613.6	2.145
3552.	616.3	2.145
3568.	619.0	2.145
3584.	621.6	2.144
3600.	624.4	2.145
3616.	627.3	2.144
3632.	629.9	2.144
3648.	632.7	2.144
3664.	635.4	2.143
3680.	638.0	2.142
3696.	640.6	2.142
3712.	643.3	2.141
3728.	646.1	2.140
3744.	648.7	2.140
3760.	651.4	2.139
3776.	654.1	2.139
3792.	656.8	2.139
3808.	659.5	2.138
3824.	662.0	2.138
3840.	664.8	2.138
3856.	667.4	2.137
3872.	670.1	2.137
3888.	672.8	2.137
3904.	675.5	2.137
3920.	678.2	2.136
3936.	680.9	2.136
3952.	683.8	2.136
3968.	686.3	2.136
3984.	688.9	2.135
4000.	691.6	2.135
4016.	694.2	2.135
4032.	696.8	2.135
4048.	699.7	2.134
4064.	702.3	2.135
4080.	704.8	2.135
4096.	707.6	2.134
4112.	710.3	2.134
4128.	713.0	2.134
4144.	715.6	2.134
4160.	718.3	2.134
4176.	721.0	2.135
4192.	723.7	2.135
4208.	726.4	2.135
4224.	729.1	2.135
4240.	731.7	2.135
4256.	734.4	2.136
4272.	737.0	2.136
4288.	739.6	2.136
4304.	742.4	2.137
4320.	745.0	2.137
4336.	747.8	2.138
4352.	750.4	2.138
4368.	753.1	2.138
4384.	755.8	2.139
4400.	758.6	2.139
4416.	761.2	2.139
4432.	763.9	2.140
4448.	766.6	2.140
4464.	769.1	2.141
4480.	771.9	2.141
4496.	774.4	2.142
4512.	777.2	2.143
4528.	779.8	2.144
4544.	782.4	2.144
4560.	785.1	2.144
4576.	787.9	2.145
4592.	790.4	2.145
4608.	793.1	2.145
4624.	795.8	2.146
4640.	798.5	2.146
4648.	799.9	2.146

File: RESINA-A-TA.txt
nstrument TGA-50H
Module TGA-50H
Operator LJ - LATAT
Sample Kit10-Resina-A
Size 6.694 mg
Method
Comment
Xcomment Pan: Platinum
Xcomment Gas1: Nitrogen
Xcomment Balance Gas: Nitrogen 20.0 ml/min
Xcomment Sample Gas: Nitrogen 20.0 ml/min
Nsig 3
Sig1 Time (sec)
Sig2 Temperature (C)
Sig3 Weight (mg)
OrgMethod 1: Ramp 10.00 C/min to 800.00 C
0	28.54	6.69457
16	28.71	6.70319
32	29.79	6.70603
48	31.28	6.70734
64	32.76	6.70825
80	34.97	6.7101
96	37.67	6.71158
112	40.55	6.7118
128	43.38	6.71091
144	45.91	6.70976
160	48.4	6.70806
176	50.92	6.7073
192	53.46	6.70633
208	56.32	6.70465
224	58.97	6.70254
240	61.66	6.69998
256	64.24	6.69715
272	66.66	6.69479
288	69.35	6.69128
304	72.14	6.68774
320	74.82	6.68391
336	77.42	6.67884
352	79.94	6.67464
368	82.69	6.66975
384	85.37	6.66348
400	87.9	6.65845
416	90.72	6.65093
432	93.22	6.64371
448	95.95	6.63599
464	98.32	6.62807
480	101	6.62014
496	103.9	6.61012
512	106.5	6.60111
528	109.1	6.58969
544	111.6	6.57954
560	114.3	6.56763
576	117.2	6.55619
592	119.8	6.54244
608	122.5	6.52935
624	124.9	6.51514
640	127.5	6.50213
656	130.7	6.4875
672	133.2	6.47332
688	135.7	6.45802
704	138.3	6.44299
720	141	6.42808
736	143.5	6.41302
752	146.3	6.39865
768	149.1	6.383
784	151.7	6.36691
800	154.3	6.35179
816	156.8	6.33736
832	159.5	6.32288
848	162.1	6.30827
864	164.9	6.29389
880	167.7	6.27958
896	170.3	6.26542
912	172.9	6.25215
928	175.6	6.23861
944	178.3	6.2255
960	181	6.21245
976	183.7	6.19946
992	186.3	6.1872
1008	189.1	6.17512
1024	191.7	6.16361
1040	194.3	6.15242
1056	197.1	6.1415
1072	199.8	6.13053
1088	202.4	6.11991
1104	205	6.1097
1120	207.8	6.09947
1136	210.5	6.08928
1152	213	6.07948
1168	215.8	6.06997
1184	218.5	6.06037
1200	221.1	6.0511
1216	223.6	6.04189
1232	226.5	6.03296
1248	229.4	6.02374
1264	232	6.01433
1280	234.5	6.0055
1296	237	5.99695
1312	239.9	5.9881
1328	242.6	5.97934
1344	245.2	5.97035
1360	247.9	5.96157
1376	250.3	5.95275
1392	252.9	5.94456
1408	256	5.93556
1424	258.8	5.92652
1440	261.3	5.91722
1456	263.6	5.9079
1472	266.2	5.89853
1488	269.4	5.88875
1504	272.1	5.87829
1520	274.5	5.86773
1536	277	5.8559
1552	279.7	5.84485
1568	282.5	5.83243
1584	285.4	5.81974
1600	287.9	5.80507
1616	290.4	5.7903
1632	293.3	5.77486
1648	296	5.75804
1664	298.4	5.74051
1680	301.1	5.7228
1696	303.8	5.70315
1712	306.6	5.68199
1728	309.3	5.66017
1744	312	5.63629
1760	314.6	5.61042
1776	317.2	5.58273
1792	319.8	5.55231
1808	322.6	5.5213
1824	325.3	5.48524
1840	327.9	5.44818
1856	330.5	5.40792
1872	333.1	5.3647
1888	335.8	5.31889
1904	338.6	5.2689
1920	341.1	5.21502
1936	344.1	5.15719
1952	346.6	5.09607
1968	349.1	5.03118
1984	351.8	4.96259
2000	354.8	4.8896
2016	357.3	4.81281
2032	359.8	4.73207
2048	362.4	4.64884
2064	365.3	4.56398
2080	367.8	4.47298
2096	370.5	4.38021
2112	373.2	4.28335
2128	375.7	4.18356
2144	378.5	4.08026
2160	381.4	3.97108
2176	383.7	3.85856
2192	386.3	3.74588
2208	389.3	3.63231
2224	391.8	3.51285
2240	394.4	3.39692
2256	397.2	3.28798
2272	400	3.18908
2288	402.5	3.10034
2304	405.1	3.01981
2320	408	2.94331
2336	410.6	2.86984
2352	413.2	2.79666
2368	415.8	2.72367
2384	418.7	2.64884
2400	421.2	2.57418
2416	423.8	2.49652
2432	426.6	2.41929
2448	429.2	2.34195
2464	431.8	2.26446
2480	434.7	2.18738
2496	437.2	2.1144
2512	439.8	2.04538
2528	442.6	1.9813
2544	445.2	1.92471
2560	447.9	1.87472
2576	450.4	1.83097
2592	453	1.79286
2608	455.9	1.75835
2624	458.4	1.7281
2640	461.1	1.70082
2656	463.6	1.67758
2672	466.5	1.65663
2688	469.2	1.63702
2704	471.8	1.61883
2720	474.3	1.60212
2736	477.2	1.58552
2752	480.2	1.56907
2768	482.5	1.55232
2784	485.1	1.5358
2800	488	1.51871
2816	490.6	1.50043
2832	493.2	1.48152
2848	495.7	1.46232
2864	498.5	1.44059
2880	501.2	1.41929
2896	503.8	1.39672
2912	506.4	1.37401
2928	509.4	1.35123
2944	511.8	1.32776
2960	514.5	1.30583
2976	517.1	1.28506
2992	520	1.26631
3008	522.5	1.2483
3024	525.1	1.23156
3040	527.9	1.2167
3056	530.6	1.20246
3072	533.4	1.18847
3088	535.7	1.17529
3104	538.5	1.16291
3120	541.3	1.14845
3136	543.8	1.13573
3152	546.3	1.12132
3168	549.3	1.10745
3184	551.7	1.09355
3200	554.4	1.08072
3216	557.1	1.06721
3232	559.7	1.05361
3248	562.5	1.04048
3264	565.2	1.02703
3280	567.7	1.01227
3296	570.5	1.00014
3312	573.2	0.985669
3328	575.8	0.970819
3344	578.4	0.957384
3360	581.1	0.944399
3376	583.8	0.929384
3392	586.4	0.916844
3408	589.1	0.902174
3424	591.7	0.888235
3440	594.5	0.872693
3456	597.2	0.858167
3472	599.8	0.843971
3488	602.7	0.829768
3504	605.5	0.815581
3520	608	0.800603
3536	611	0.785926
3552	613.7	0.771325
3568	616.3	0.756362
3584	619.1	0.741053
3600	621.6	0.726121
3616	624.4	0.710518
3632	627	0.695067
3648	629.6	0.679593
3664	632.4	0.664299
3680	635	0.649208
3696	637.7	0.634253
3712	640.5	0.618516
3728	643	0.603079
3744	645.8	0.587327
3760	648.7	0.571183
3776	651.2	0.555686
3792	654	0.539956
3808	656.5	0.524399
3824	659.2	0.509136
3840	661.9	0.494331
3856	664.5	0.479331
3872	667.2	0.465301
3888	669.9	0.451527
3904	672.5	0.437783
3920	675.2	0.423783
3936	678	0.410235
3952	680.6	0.396551
3968	683.4	0.383507
3984	685.8	0.370605
4000	688.7	0.358072
4016	691.3	0.346194
4032	694	0.334902
4048	696.7	0.323927
4064	699.4	0.313417
4080	702.2	0.303894
4096	705	0.295024
4112	707.6	0.286133
4128	710.2	0.280288
4144	712.7	0.27454
4160	715.6	0.269771
4176	718	0.266732
4192	720.8	0.266235
4208	723.4	0.266085
4224	726.1	0.265949
4240	728.8	0.266205
4256	731.5	0.265611
4272	734.1	0.266777
4288	736.8	0.266243
4304	739.5	0.265739
4320	742.1	0.265746
4336	744.8	0.265566
4352	747.4	0.266333
4368	750	0.267356
4384	752.8	0.26774
4400	755.5	0.266942
4416	758.2	0.265415
4432	760.9	0.265137
4448	763.4	0.265295
4464	766	0.265663
4480	768.7	0.265927
4496	771.4	0.265362
4512	774	0.265505
4528	776.8	0.265919
4544	779.3	0.263662
4560	782	0.263399
4576	784.7	0.261827
4592	787.4	0.26197
4608	789.9	0.26054
4624	792.5	0.260217
4640	795.3	0.259863
4656	797.8	0.25942
4667	799.8	0.259562